wavelength:cm-1,532.143005
X	Y
60.775025	600.000000
61.224870	617.000000
61.674680	611.000000
62.124455	598.000000
62.574194	616.000000
63.023898	601.000000
63.473566	641.000000
63.923199	619.000000
64.372797	612.000000
64.822359	634.000000
65.271886	610.000000
65.721378	628.000000
66.170834	606.000000
66.620255	619.000000
67.069641	634.000000
67.518991	620.000000
67.968306	614.000000
68.417586	628.000000
68.866830	637.000000
69.316039	653.000000
69.765212	655.000000
70.214350	636.000000
70.663453	644.000000
71.112521	636.000000
71.561553	664.000000
72.010550	682.000000
72.459511	728.000000
72.908437	725.000000
73.357328	694.000000
73.806184	738.000000
74.255004	765.000000
74.703789	803.000000
75.152539	824.000000
75.601253	854.000000
76.049932	883.000000
76.498576	905.000000
76.947184	955.000000
77.395757	970.000000
77.844295	985.000000
78.292798	1006.000000
78.741265	1028.000000
79.189697	993.000000
79.638094	1000.000000
80.086455	972.000000
80.534781	915.000000
80.983072	896.000000
81.431328	901.000000
81.879548	839.000000
82.327733	808.000000
82.775883	778.000000
83.223997	738.000000
83.672077	728.000000
84.120121	677.000000
84.568129	693.000000
85.016103	661.000000
85.464041	648.000000
85.911944	645.000000
86.359812	635.000000
86.807644	644.000000
87.255442	604.000000
87.703204	617.000000
88.150931	626.000000
88.598622	617.000000
89.046278	623.000000
89.493900	614.000000
89.941485	622.000000
90.389036	616.000000
90.836552	598.000000
91.284032	599.000000
91.731477	602.000000
92.178887	602.000000
92.626261	603.000000
93.073600	615.000000
93.520905	610.000000
93.968174	585.000000
94.415407	594.000000
94.862606	597.000000
95.309769	601.000000
95.756897	599.000000
96.203990	608.000000
96.651048	597.000000
97.098071	604.000000
97.545058	599.000000
97.992010	594.000000
98.438928	609.000000
98.885809	605.000000
99.332656	597.000000
99.779468	589.000000
100.226244	606.000000
100.672985	607.000000
101.119691	637.000000
101.566362	606.000000
102.012998	607.000000
102.459598	628.000000
102.906164	589.000000
103.352694	618.000000
103.799189	622.000000
104.245649	623.000000
104.692074	624.000000
105.138464	624.000000
105.584818	626.000000
106.031138	613.000000
106.477422	629.000000
106.923671	630.000000
107.369885	638.000000
107.816064	644.000000
108.262208	643.000000
108.708316	630.000000
109.154390	663.000000
109.600428	644.000000
110.046431	652.000000
110.492400	676.000000
110.938333	668.000000
111.384231	666.000000
111.830093	657.000000
112.275921	673.000000
112.721714	680.000000
113.167471	680.000000
113.613194	682.000000
114.058881	672.000000
114.504534	665.000000
114.950151	676.000000
115.395733	687.000000
115.841280	666.000000
116.286792	686.000000
116.732269	679.000000
117.177710	674.000000
117.623117	676.000000
118.068489	676.000000
118.513825	678.000000
118.959127	702.000000
119.404393	706.000000
119.849625	689.000000
120.294821	721.000000
120.739982	672.000000
121.185109	744.000000
121.630200	713.000000
122.075256	719.000000
122.520277	744.000000
122.965263	712.000000
123.410214	755.000000
123.855130	735.000000
124.300011	745.000000
124.744857	791.000000
125.189668	750.000000
125.634444	784.000000
126.079184	739.000000
126.523890	791.000000
126.968561	797.000000
127.413197	790.000000
127.857798	771.000000
128.302363	780.000000
128.746894	776.000000
129.191390	777.000000
129.635850	752.000000
130.080276	773.000000
130.524667	760.000000
130.969023	740.000000
131.413343	729.000000
131.857629	718.000000
132.301880	707.000000
132.746095	703.000000
133.190276	695.000000
133.634422	682.000000
134.078533	686.000000
134.522609	696.000000
134.966649	652.000000
135.410655	680.000000
135.854626	645.000000
136.298562	683.000000
136.742463	662.000000
137.186329	661.000000
137.630160	655.000000
138.073956	632.000000
138.517717	652.000000
138.961443	642.000000
139.405135	643.000000
139.848791	640.000000
140.292412	618.000000
140.735999	634.000000
141.179550	625.000000
141.623067	620.000000
142.066548	639.000000
142.509995	600.000000
142.953406	593.000000
143.396783	636.000000
143.840125	601.000000
144.283432	608.000000
144.726704	606.000000
145.169941	607.000000
145.613143	619.000000
146.056310	617.000000
146.499443	619.000000
146.942540	615.000000
147.385603	600.000000
147.828630	597.000000
148.271623	632.000000
148.714581	601.000000
149.157504	568.000000
149.600392	591.000000
150.043245	609.000000
150.486063	618.000000
150.928847	598.000000
151.371595	609.000000
151.814309	599.000000
152.256987	611.000000
152.699631	592.000000
153.142240	602.000000
153.584814	622.000000
154.027353	602.000000
154.469858	603.000000
154.912327	591.000000
155.354762	602.000000
155.797162	601.000000
156.239527	602.000000
156.681857	606.000000
157.124152	576.000000
157.566412	592.000000
158.008638	580.000000
158.450828	610.000000
158.892984	604.000000
159.335105	610.000000
159.777191	588.000000
160.219242	614.000000
160.661259	619.000000
161.103241	597.000000
161.545187	607.000000
161.987099	601.000000
162.428977	613.000000
162.870819	610.000000
163.312626	607.000000
163.754399	590.000000
164.196137	593.000000
164.637840	593.000000
165.079508	589.000000
165.521142	595.000000
165.962740	601.000000
166.404304	587.000000
166.845833	584.000000
167.287328	589.000000
167.728787	591.000000
168.170212	600.000000
168.611602	586.000000
169.052957	591.000000
169.494277	608.000000
169.935563	601.000000
170.376813	588.000000
170.818029	604.000000
171.259211	601.000000
171.700357	605.000000
172.141469	607.000000
172.582546	580.000000
173.023588	589.000000
173.464595	582.000000
173.905568	589.000000
174.346506	608.000000
174.787409	602.000000
175.228277	589.000000
175.669111	600.000000
176.109910	612.000000
176.550674	600.000000
176.991403	572.000000
177.432098	597.000000
177.872758	602.000000
178.313383	613.000000
178.753973	608.000000
179.194529	597.000000
179.635050	562.000000
180.075536	602.000000
180.515988	612.000000
180.956405	598.000000
181.396787	606.000000
181.837134	589.000000
182.277447	614.000000
182.717725	589.000000
183.157968	605.000000
183.598177	585.000000
184.038350	603.000000
184.478490	604.000000
184.918594	589.000000
185.358664	587.000000
185.798699	598.000000
186.238699	597.000000
186.678665	611.000000
187.118596	596.000000
187.558492	608.000000
187.998354	599.000000
188.438181	587.000000
188.877973	599.000000
189.317731	601.000000
189.757454	607.000000
190.197142	598.000000
190.636796	611.000000
191.076414	583.000000
191.515999	605.000000
191.955548	597.000000
192.395063	593.000000
192.834544	607.000000
193.273989	609.000000
193.713400	606.000000
194.152777	588.000000
194.592118	585.000000
195.031425	608.000000
195.470698	591.000000
195.909936	594.000000
196.349139	574.000000
196.788307	610.000000
197.227441	588.000000
197.666541	612.000000
198.105605	584.000000
198.544635	596.000000
198.983631	606.000000
199.422591	598.000000
199.861518	598.000000
200.300409	587.000000
200.739266	628.000000
201.178089	605.000000
201.616876	594.000000
202.055629	595.000000
202.494348	604.000000
202.933032	607.000000
203.371681	605.000000
203.810296	607.000000
204.248876	588.000000
204.687422	585.000000
205.125933	616.000000
205.564409	603.000000
206.002851	606.000000
206.441258	589.000000
206.879631	613.000000
207.317969	591.000000
207.756273	599.000000
208.194542	625.000000
208.632776	618.000000
209.070976	618.000000
209.509141	614.000000
209.947272	610.000000
210.385368	629.000000
210.823430	621.000000
211.261457	615.000000
211.699449	626.000000
212.137407	632.000000
212.575331	628.000000
213.013220	626.000000
213.451074	626.000000
213.888894	630.000000
214.326679	645.000000
214.764430	634.000000
215.202146	645.000000
215.639828	662.000000
216.077475	691.000000
216.515087	680.000000
216.952666	701.000000
217.390209	709.000000
217.827718	680.000000
218.265193	691.000000
218.702633	701.000000
219.140038	700.000000
219.577410	710.000000
220.014746	707.000000
220.452048	707.000000
220.889316	719.000000
221.326549	746.000000
221.763747	742.000000
222.200911	757.000000
222.638041	757.000000
223.075136	753.000000
223.512197	741.000000
223.949223	741.000000
224.386215	755.000000
224.823172	727.000000
225.260094	762.000000
225.696983	746.000000
226.133836	706.000000
226.570656	722.000000
227.007441	705.000000
227.444191	713.000000
227.880907	695.000000
228.317588	713.000000
228.754235	681.000000
229.190848	659.000000
229.627426	689.000000
230.063970	659.000000
230.500479	651.000000
230.936954	658.000000
231.373394	639.000000
231.809800	672.000000
232.246172	652.000000
232.682509	646.000000
233.118811	637.000000
233.555080	650.000000
233.991313	635.000000
234.427513	633.000000
234.863678	636.000000
235.299808	635.000000
235.735904	637.000000
236.171966	647.000000
236.607993	669.000000
237.043986	658.000000
237.479944	670.000000
237.915869	670.000000
238.351758	699.000000
238.787613	666.000000
239.223434	688.000000
239.659221	720.000000
240.094973	726.000000
240.530691	726.000000
240.966374	762.000000
241.402023	784.000000
241.837637	820.000000
242.273218	832.000000
242.708763	851.000000
243.144275	923.000000
243.579752	912.000000
244.015195	959.000000
244.450603	1067.000000
244.885977	1055.000000
245.321316	1145.000000
245.756622	1171.000000
246.191893	1214.000000
246.627129	1291.000000
247.062331	1338.000000
247.497499	1374.000000
247.932633	1422.000000
248.367732	1429.000000
248.802796	1462.000000
249.237827	1436.000000
249.672823	1464.000000
250.107785	1402.000000
250.542712	1366.000000
250.977605	1417.000000
251.412464	1302.000000
251.847289	1310.000000
252.282079	1209.000000
252.716835	1172.000000
253.151556	1129.000000
253.586243	1057.000000
254.020896	1017.000000
254.455515	983.000000
254.890099	937.000000
255.324649	874.000000
255.759165	868.000000
256.193646	850.000000
256.628093	830.000000
257.062506	841.000000
257.496884	814.000000
257.931229	782.000000
258.365538	794.000000
258.799814	775.000000
259.234055	779.000000
259.668262	778.000000
260.102435	773.000000
260.536574	760.000000
260.970678	728.000000
261.404748	775.000000
261.838783	738.000000
262.272785	752.000000
262.706752	766.000000
263.140685	773.000000
263.574584	782.000000
264.008448	793.000000
264.442278	794.000000
264.876074	799.000000
265.309835	784.000000
265.743563	834.000000
266.177256	856.000000
266.610915	848.000000
267.044539	908.000000
267.478130	900.000000
267.911686	905.000000
268.345208	980.000000
268.778696	963.000000
269.212149	1013.000000
269.645568	1002.000000
270.078953	1058.000000
270.512304	1117.000000
270.945621	1074.000000
271.378903	1133.000000
271.812151	1115.000000
272.245365	1153.000000
272.678545	1131.000000
273.111690	1176.000000
273.544802	1156.000000
273.977879	1172.000000
274.410922	1112.000000
274.843931	1077.000000
275.276905	1062.000000
275.709845	1049.000000
276.142752	1001.000000
276.575624	980.000000
277.008461	967.000000
277.441265	967.000000
277.874034	922.000000
278.306770	882.000000
278.739471	825.000000
279.172138	843.000000
279.604770	817.000000
280.037369	810.000000
280.469933	792.000000
280.902464	734.000000
281.334960	756.000000
281.767422	740.000000
282.199849	745.000000
282.632243	735.000000
283.064602	692.000000
283.496928	698.000000
283.929219	704.000000
284.361476	694.000000
284.793699	660.000000
285.225888	677.000000
285.658042	684.000000
286.090163	676.000000
286.522249	680.000000
286.954301	669.000000
287.386319	674.000000
287.818303	674.000000
288.250253	657.000000
288.682169	664.000000
289.114050	657.000000
289.545898	657.000000
289.977711	650.000000
290.409491	627.000000
290.841236	642.000000
291.272947	638.000000
291.704624	652.000000
292.136267	639.000000
292.567875	647.000000
292.999450	619.000000
293.430991	638.000000
293.862497	630.000000
294.293969	614.000000
294.725408	639.000000
295.156812	610.000000
295.588182	636.000000
296.019518	622.000000
296.450820	630.000000
296.882088	622.000000
297.313322	629.000000
297.744522	622.000000
298.175687	631.000000
298.606819	631.000000
299.037917	612.000000
299.468980	625.000000
299.900010	600.000000
300.331005	640.000000
300.761966	642.000000
301.192894	623.000000
301.623787	603.000000
302.054646	626.000000
302.485471	611.000000
302.916263	621.000000
303.347020	624.000000
303.777743	630.000000
304.208432	607.000000
304.639087	619.000000
305.069708	592.000000
305.500295	592.000000
305.930848	595.000000
306.361367	615.000000
306.791852	621.000000
307.222302	617.000000
307.652719	632.000000
308.083102	586.000000
308.513451	627.000000
308.943766	616.000000
309.374047	589.000000
309.804294	606.000000
310.234506	594.000000
310.664685	597.000000
311.094830	607.000000
311.524941	584.000000
311.955018	587.000000
312.385061	601.000000
312.815070	615.000000
313.245045	607.000000
313.674986	588.000000
314.104892	591.000000
314.534765	592.000000
314.964604	589.000000
315.394410	602.000000
315.824181	587.000000
316.253918	593.000000
316.683621	583.000000
317.113290	603.000000
317.542925	587.000000
317.972527	595.000000
318.402094	601.000000
318.831627	573.000000
319.261127	581.000000
319.690592	608.000000
320.120024	590.000000
320.549421	591.000000
320.978785	590.000000
321.408115	595.000000
321.837411	589.000000
322.266672	601.000000
322.695900	576.000000
323.125094	602.000000
323.554254	599.000000
323.983381	572.000000
324.412473	628.000000
324.841531	591.000000
325.270556	587.000000
325.699546	579.000000
326.128503	589.000000
326.557425	603.000000
326.986314	594.000000
327.415169	571.000000
327.843990	579.000000
328.272777	590.000000
328.701530	611.000000
329.130249	586.000000
329.558935	616.000000
329.987586	586.000000
330.416204	588.000000
330.844788	590.000000
331.273337	599.000000
331.701853	602.000000
332.130336	597.000000
332.558784	593.000000
332.987198	588.000000
333.415579	583.000000
333.843925	586.000000
334.272238	587.000000
334.700517	599.000000
335.128762	583.000000
335.556973	588.000000
335.985150	577.000000
336.413294	582.000000
336.841404	591.000000
337.269479	615.000000
337.697521	582.000000
338.125529	605.000000
338.553504	591.000000
338.981444	598.000000
339.409351	600.000000
339.837223	588.000000
340.265062	596.000000
340.692867	580.000000
341.120638	596.000000
341.548376	579.000000
341.976080	596.000000
342.403749	603.000000
342.831385	617.000000
343.258987	592.000000
343.686556	599.000000
344.114090	607.000000
344.541591	605.000000
344.969058	606.000000
345.396491	587.000000
345.823890	587.000000
346.251256	590.000000
346.678588	589.000000
347.105886	581.000000
347.533150	590.000000
347.960380	592.000000
348.387577	588.000000
348.814740	592.000000
349.241869	614.000000
349.668964	593.000000
350.096025	610.000000
350.523053	612.000000
350.950047	583.000000
351.377007	602.000000
351.803933	592.000000
352.230826	593.000000
352.657685	600.000000
353.084510	605.000000
353.511301	617.000000
353.938059	599.000000
354.364783	606.000000
354.791473	594.000000
355.218129	595.000000
355.644752	614.000000
356.071341	627.000000
356.497896	626.000000
356.924417	604.000000
357.350905	601.000000
357.777359	607.000000
358.203779	572.000000
358.630165	629.000000
359.056518	620.000000
359.482837	631.000000
359.909122	612.000000
360.335374	621.000000
360.761592	607.000000
361.187776	608.000000
361.613926	630.000000
362.040043	614.000000
362.466126	642.000000
362.892175	617.000000
363.318191	613.000000
363.744173	612.000000
364.170121	639.000000
364.596035	634.000000
365.021916	640.000000
365.447763	630.000000
365.873577	630.000000
366.299357	657.000000
366.725103	656.000000
367.150815	649.000000
367.576494	656.000000
368.002139	672.000000
368.427750	646.000000
368.853328	649.000000
369.278872	696.000000
369.704382	695.000000
370.129859	704.000000
370.555302	725.000000
370.980711	730.000000
371.406087	742.000000
371.831429	780.000000
372.256737	794.000000
372.682012	822.000000
373.107253	850.000000
373.532461	911.000000
373.957635	934.000000
374.382775	978.000000
374.807881	1043.000000
375.232954	1081.000000
375.657994	1170.000000
376.082999	1171.000000
376.507971	1205.000000
376.932910	1275.000000
377.357814	1324.000000
377.782686	1388.000000
378.207523	1364.000000
378.632327	1350.000000
379.057097	1358.000000
379.481834	1392.000000
379.906537	1299.000000
380.331207	1240.000000
380.755843	1219.000000
381.180445	1130.000000
381.605014	1103.000000
382.029549	1055.000000
382.454050	956.000000
382.878518	905.000000
383.302952	894.000000
383.727353	821.000000
384.151720	792.000000
384.576054	779.000000
385.000354	721.000000
385.424620	720.000000
385.848853	703.000000
386.273052	682.000000
386.697218	676.000000
387.121350	637.000000
387.545448	656.000000
387.969513	643.000000
388.393545	642.000000
388.817543	638.000000
389.241507	630.000000
389.665438	617.000000
390.089335	621.000000
390.513199	609.000000
390.937029	602.000000
391.360825	619.000000
391.784588	606.000000
392.208318	618.000000
392.632014	587.000000
393.055676	606.000000
393.479305	622.000000
393.902900	606.000000
394.326462	599.000000
394.749990	612.000000
395.173485	609.000000
395.596946	610.000000
396.020374	576.000000
396.443768	595.000000
396.867129	620.000000
397.290456	602.000000
397.713750	584.000000
398.137010	607.000000
398.560237	599.000000
398.983430	599.000000
399.406589	600.000000
399.829716	615.000000
400.252808	597.000000
400.675867	603.000000
401.098893	606.000000
401.521885	596.000000
401.944844	591.000000
402.367769	603.000000
402.790661	593.000000
403.213519	597.000000
403.636344	589.000000
404.059135	598.000000
404.481893	597.000000
404.904618	588.000000
405.327308	606.000000
405.749966	598.000000
406.172590	595.000000
406.595180	599.000000
407.017737	598.000000
407.440261	584.000000
407.862751	597.000000
408.285208	593.000000
408.707631	594.000000
409.130021	598.000000
409.552377	589.000000
409.974700	596.000000
410.396990	587.000000
410.819246	593.000000
411.241469	590.000000
411.663658	605.000000
412.085814	582.000000
412.507936	605.000000
412.930025	584.000000
413.352080	581.000000
413.774102	579.000000
414.196091	586.000000
414.618046	587.000000
415.039968	584.000000
415.461857	607.000000
415.883712	604.000000
416.305533	593.000000
416.727321	592.000000
417.149076	597.000000
417.570798	585.000000
417.992486	584.000000
418.414140	585.000000
418.835762	579.000000
419.257349	619.000000
419.678904	602.000000
420.100425	588.000000
420.521913	599.000000
420.943367	586.000000
421.364788	597.000000
421.786175	582.000000
422.207530	607.000000
422.628850	582.000000
423.050138	582.000000
423.471392	586.000000
423.892613	582.000000
424.313800	592.000000
424.734954	603.000000
425.156075	598.000000
425.577162	584.000000
425.998216	584.000000
426.419237	600.000000
426.840224	598.000000
427.261178	609.000000
427.682098	583.000000
428.102986	572.000000
428.523840	613.000000
428.944660	585.000000
429.365447	596.000000
429.786201	577.000000
430.206922	614.000000
430.627609	581.000000
431.048263	587.000000
431.468884	582.000000
431.889471	594.000000
432.310025	584.000000
432.730546	584.000000
433.151033	612.000000
433.571487	585.000000
433.991908	605.000000
434.412295	605.000000
434.832649	593.000000
435.252970	584.000000
435.673258	595.000000
436.093512	573.000000
436.513733	593.000000
436.933921	595.000000
437.354075	598.000000
437.774196	597.000000
438.194284	602.000000
438.614339	588.000000
439.034360	595.000000
439.454348	605.000000
439.874303	594.000000
440.294224	588.000000
440.714112	569.000000
441.133967	596.000000
441.553789	602.000000
441.973577	586.000000
442.393332	587.000000
442.813054	589.000000
443.232743	574.000000
443.652398	587.000000
444.072020	598.000000
444.491609	601.000000
444.911165	594.000000
445.330687	583.000000
445.750176	594.000000
446.169632	590.000000
446.589055	593.000000
447.008444	600.000000
447.427801	608.000000
447.847124	592.000000
448.266413	601.000000
448.685670	608.000000
449.104893	587.000000
449.524083	575.000000
449.943240	601.000000
450.362364	619.000000
450.781454	597.000000
451.200512	587.000000
451.619536	617.000000
452.038526	589.000000
452.457484	592.000000
452.876408	601.000000
453.295300	589.000000
453.714158	589.000000
454.132983	590.000000
454.551774	588.000000
454.970533	596.000000
455.389258	601.000000
455.807950	569.000000
456.226609	577.000000
456.645235	603.000000
457.063827	591.000000
457.482387	593.000000
457.900913	579.000000
458.319406	609.000000
458.737866	605.000000
459.156293	597.000000
459.574686	590.000000
459.993047	586.000000
460.411374	580.000000
460.829668	590.000000
461.247929	578.000000
461.666157	581.000000
462.084351	587.000000
462.502513	613.000000
462.920641	599.000000
463.338736	587.000000
463.756798	589.000000
464.174827	585.000000
464.592823	586.000000
465.010786	600.000000
465.428715	572.000000
465.846612	572.000000
466.264475	593.000000
466.682305	597.000000
467.100102	592.000000
467.517866	577.000000
467.935597	585.000000
468.353295	588.000000
468.770959	582.000000
469.188591	591.000000
469.606189	590.000000
470.023755	583.000000
470.441287	584.000000
470.858786	594.000000
471.276252	589.000000
471.693685	600.000000
472.111084	576.000000
472.528451	574.000000
472.945785	587.000000
473.363085	590.000000
473.780353	581.000000
474.197587	581.000000
474.614788	569.000000
475.031957	563.000000
475.449092	594.000000
475.866194	574.000000
476.283263	594.000000
476.700299	590.000000
477.117302	599.000000
477.534272	584.000000
477.951208	577.000000
478.368112	603.000000
478.784983	599.000000
479.201820	600.000000
479.618625	581.000000
480.035396	568.000000
480.452135	611.000000
480.868840	591.000000
481.285513	606.000000
481.702152	596.000000
482.118758	582.000000
482.535331	605.000000
482.951872	599.000000
483.368379	590.000000
483.784853	599.000000
484.201294	589.000000
484.617702	597.000000
485.034077	581.000000
485.450420	589.000000
485.866729	584.000000
486.283005	575.000000
486.699248	592.000000
487.115458	589.000000
487.531635	604.000000
487.947779	583.000000
488.363890	611.000000
488.779968	621.000000
489.196013	594.000000
489.612025	609.000000
490.028004	608.000000
490.443950	583.000000
490.859863	568.000000
491.275744	598.000000
491.691591	603.000000
492.107405	579.000000
492.523186	584.000000
492.938934	602.000000
493.354649	597.000000
493.770332	596.000000
494.185981	589.000000
494.601597	604.000000
495.017181	595.000000
495.432731	602.000000
495.848249	608.000000
496.263733	587.000000
496.679185	581.000000
497.094603	601.000000
497.509989	603.000000
497.925341	582.000000
498.340661	586.000000
498.755948	605.000000
499.171202	621.000000
499.586423	597.000000
500.001611	606.000000
500.416766	602.000000
500.831888	575.000000
501.246977	596.000000
501.662033	581.000000
502.077057	591.000000
502.492047	597.000000
502.907005	592.000000
503.321929	607.000000
503.736821	607.000000
504.151680	601.000000
504.566506	600.000000
504.981299	596.000000
505.396059	602.000000
505.810786	618.000000
506.225480	607.000000
506.640141	585.000000
507.054770	584.000000
507.469365	612.000000
507.883928	606.000000
508.298458	595.000000
508.712955	578.000000
509.127419	601.000000
509.541850	596.000000
509.956248	625.000000
510.370614	588.000000
510.784946	593.000000
511.199246	606.000000
511.613513	594.000000
512.027746	595.000000
512.441947	593.000000
512.856116	612.000000
513.270251	584.000000
513.684353	582.000000
514.098423	597.000000
514.512460	603.000000
514.926464	591.000000
515.340435	595.000000
515.754373	609.000000
516.168278	601.000000
516.582151	603.000000
516.995990	612.000000
517.409797	610.000000
517.823571	613.000000
518.237312	590.000000
518.651021	585.000000
519.064696	602.000000
519.478339	598.000000
519.891949	599.000000
520.305526	587.000000
520.719070	589.000000
521.132581	600.000000
521.546060	617.000000
521.959506	604.000000
522.372919	606.000000
522.786299	580.000000
523.199646	599.000000
523.612961	595.000000
524.026243	585.000000
524.439492	597.000000
524.852708	615.000000
525.265891	598.000000
525.679042	598.000000
526.092160	599.000000
526.505245	592.000000
526.918297	590.000000
527.331316	604.000000
527.744303	587.000000
528.157257	615.000000
528.570178	586.000000
528.983066	610.000000
529.395922	597.000000
529.808745	607.000000
530.221535	595.000000
530.634292	625.000000
531.047017	577.000000
531.459708	600.000000
531.872367	602.000000
532.284994	597.000000
532.697587	593.000000
533.110148	599.000000
533.522676	622.000000
533.935171	602.000000
534.347634	600.000000
534.760063	609.000000
535.172461	601.000000
535.584825	618.000000
535.997156	610.000000
536.409455	598.000000
536.821721	593.000000
537.233955	604.000000
537.646155	588.000000
538.058323	620.000000
538.470459	627.000000
538.882561	596.000000
539.294631	613.000000
539.706668	604.000000
540.118672	604.000000
540.530644	583.000000
540.942583	605.000000
541.354489	605.000000
541.766363	609.000000
542.178204	610.000000
542.590012	611.000000
543.001788	613.000000
543.413530	613.000000
543.825240	594.000000
544.236918	599.000000
544.648563	621.000000
545.060175	627.000000
545.471754	612.000000
545.883301	601.000000
546.294815	601.000000
546.706296	616.000000
547.117745	598.000000
547.529161	620.000000
547.940544	605.000000
548.351895	605.000000
548.763213	602.000000
549.174498	603.000000
549.585751	618.000000
549.996971	586.000000
550.408159	626.000000
550.819313	616.000000
551.230435	595.000000
551.641525	614.000000
552.052582	613.000000
552.463606	613.000000
552.874597	609.000000
553.285556	595.000000
553.696483	611.000000
554.107376	616.000000
554.518237	602.000000
554.929066	601.000000
555.339862	606.000000
555.750625	612.000000
556.161355	615.000000
556.572053	616.000000
556.982718	627.000000
557.393351	629.000000
557.803951	654.000000
558.214519	642.000000
558.625054	655.000000
559.035556	676.000000
559.446026	695.000000
559.856463	704.000000
560.266867	689.000000
560.677239	701.000000
561.087578	737.000000
561.497885	716.000000
561.908159	749.000000
562.318401	752.000000
562.728610	786.000000
563.138786	758.000000
563.548930	778.000000
563.959041	804.000000
564.369120	746.000000
564.779166	753.000000
565.189179	756.000000
565.599160	738.000000
566.009109	713.000000
566.419024	741.000000
566.828908	687.000000
567.238758	708.000000
567.648577	697.000000
568.058362	652.000000
568.468115	658.000000
568.877836	632.000000
569.287524	641.000000
569.697179	628.000000
570.106802	624.000000
570.516392	633.000000
570.925950	611.000000
571.335475	604.000000
571.744968	608.000000
572.154428	609.000000
572.563856	618.000000
572.973251	612.000000
573.382614	590.000000
573.791944	610.000000
574.201242	615.000000
574.610507	602.000000
575.019739	610.000000
575.428939	604.000000
575.838107	605.000000
576.247242	608.000000
576.656345	589.000000
577.065415	613.000000
577.474452	606.000000
577.883457	605.000000
578.292430	612.000000
578.701370	596.000000
579.110277	613.000000
579.519153	592.000000
579.927995	585.000000
580.336805	604.000000
580.745583	604.000000
581.154328	591.000000
581.563041	599.000000
581.971721	595.000000
582.380369	585.000000
582.788984	597.000000
583.197567	577.000000
583.606117	597.000000
584.014635	604.000000
584.423120	584.000000
584.831573	595.000000
585.239994	591.000000
585.648382	602.000000
586.056738	598.000000
586.465061	603.000000
586.873352	610.000000
587.281610	590.000000
587.689836	580.000000
588.098029	607.000000
588.506190	601.000000
588.914319	590.000000
589.322415	592.000000
589.730478	564.000000
590.138510	600.000000
590.546508	596.000000
590.954475	592.000000
591.362409	599.000000
591.770310	583.000000
592.178179	595.000000
592.586016	589.000000
592.993820	596.000000
593.401592	582.000000
593.809332	618.000000
594.217039	590.000000
594.624714	585.000000
595.032356	608.000000
595.439966	578.000000
595.847543	588.000000
596.255088	594.000000
596.662601	581.000000
597.070081	592.000000
597.477529	582.000000
597.884945	591.000000
598.292328	589.000000
598.699679	579.000000
599.106997	601.000000
599.514283	593.000000
