wavelength:cm-1,532.143005
X	Y
60.775025	644.000000
61.224870	623.000000
61.674680	631.000000
62.124455	629.000000
62.574194	627.000000
63.023898	631.000000
63.473566	635.000000
63.923199	639.000000
64.372797	617.000000
64.822359	632.000000
65.271886	645.000000
65.721378	640.000000
66.170834	650.000000
66.620255	638.000000
67.069641	634.000000
67.518991	645.000000
67.968306	663.000000
68.417586	641.000000
68.866830	651.000000
69.316039	659.000000
69.765212	663.000000
70.214350	660.000000
70.663453	686.000000
71.112521	709.000000
71.561553	676.000000
72.010550	693.000000
72.459511	712.000000
72.908437	726.000000
73.357328	735.000000
73.806184	767.000000
74.255004	744.000000
74.703789	775.000000
75.152539	823.000000
75.601253	852.000000
76.049932	904.000000
76.498576	921.000000
76.947184	986.000000
77.395757	984.000000
77.844295	958.000000
78.292798	956.000000
78.741265	1006.000000
79.189697	977.000000
79.638094	985.000000
80.086455	942.000000
80.534781	884.000000
80.983072	882.000000
81.431328	872.000000
81.879548	805.000000
82.327733	772.000000
82.775883	750.000000
83.223997	710.000000
83.672077	704.000000
84.120121	696.000000
84.568129	666.000000
85.016103	673.000000
85.464041	661.000000
85.911944	635.000000
86.359812	639.000000
86.807644	640.000000
87.255442	649.000000
87.703204	625.000000
88.150931	648.000000
88.598622	627.000000
89.046278	619.000000
89.493900	618.000000
89.941485	622.000000
90.389036	638.000000
90.836552	617.000000
91.284032	602.000000
91.731477	623.000000
92.178887	620.000000
92.626261	631.000000
93.073600	624.000000
93.520905	608.000000
93.968174	622.000000
94.415407	602.000000
94.862606	595.000000
95.309769	609.000000
95.756897	602.000000
96.203990	615.000000
96.651048	592.000000
97.098071	584.000000
97.545058	637.000000
97.992010	598.000000
98.438928	606.000000
98.885809	627.000000
99.332656	618.000000
99.779468	598.000000
100.226244	628.000000
100.672985	625.000000
101.119691	598.000000
101.566362	621.000000
102.012998	627.000000
102.459598	634.000000
102.906164	601.000000
103.352694	605.000000
103.799189	624.000000
104.245649	622.000000
104.692074	615.000000
105.138464	619.000000
105.584818	636.000000
106.031138	607.000000
106.477422	612.000000
106.923671	595.000000
107.369885	619.000000
107.816064	620.000000
108.262208	631.000000
108.708316	630.000000
109.154390	629.000000
109.600428	636.000000
110.046431	611.000000
110.492400	628.000000
110.938333	628.000000
111.384231	637.000000
111.830093	633.000000
112.275921	637.000000
112.721714	648.000000
113.167471	641.000000
113.613194	621.000000
114.058881	633.000000
114.504534	644.000000
114.950151	641.000000
115.395733	643.000000
115.841280	625.000000
116.286792	653.000000
116.732269	655.000000
117.177710	641.000000
117.623117	655.000000
118.068489	660.000000
118.513825	652.000000
118.959127	643.000000
119.404393	696.000000
119.849625	668.000000
120.294821	665.000000
120.739982	688.000000
121.185109	686.000000
121.630200	707.000000
122.075256	713.000000
122.520277	722.000000
122.965263	715.000000
123.410214	727.000000
123.855130	727.000000
124.300011	697.000000
124.744857	748.000000
125.189668	745.000000
125.634444	741.000000
126.079184	746.000000
126.523890	746.000000
126.968561	768.000000
127.413197	739.000000
127.857798	759.000000
128.302363	741.000000
128.746894	721.000000
129.191390	742.000000
129.635850	750.000000
130.080276	712.000000
130.524667	709.000000
130.969023	729.000000
131.413343	700.000000
131.857629	693.000000
132.301880	685.000000
132.746095	677.000000
133.190276	689.000000
133.634422	679.000000
134.078533	696.000000
134.522609	665.000000
134.966649	666.000000
135.410655	693.000000
135.854626	643.000000
136.298562	624.000000
136.742463	652.000000
137.186329	641.000000
137.630160	654.000000
138.073956	635.000000
138.517717	623.000000
138.961443	637.000000
139.405135	628.000000
139.848791	602.000000
140.292412	615.000000
140.735999	613.000000
141.179550	605.000000
141.623067	611.000000
142.066548	587.000000
142.509995	631.000000
142.953406	618.000000
143.396783	594.000000
143.840125	609.000000
144.283432	612.000000
144.726704	618.000000
145.169941	590.000000
145.613143	592.000000
146.056310	618.000000
146.499443	610.000000
146.942540	606.000000
147.385603	618.000000
147.828630	620.000000
148.271623	604.000000
148.714581	582.000000
149.157504	608.000000
149.600392	594.000000
150.043245	596.000000
150.486063	606.000000
150.928847	584.000000
151.371595	606.000000
151.814309	583.000000
152.256987	581.000000
152.699631	582.000000
153.142240	588.000000
153.584814	586.000000
154.027353	594.000000
154.469858	578.000000
154.912327	606.000000
155.354762	583.000000
155.797162	606.000000
156.239527	609.000000
156.681857	608.000000
157.124152	590.000000
157.566412	583.000000
158.008638	602.000000
158.450828	587.000000
158.892984	581.000000
159.335105	601.000000
159.777191	590.000000
160.219242	594.000000
160.661259	581.000000
161.103241	582.000000
161.545187	578.000000
161.987099	580.000000
162.428977	604.000000
162.870819	592.000000
163.312626	598.000000
163.754399	597.000000
164.196137	602.000000
164.637840	583.000000
165.079508	592.000000
165.521142	594.000000
165.962740	585.000000
166.404304	586.000000
166.845833	594.000000
167.287328	585.000000
167.728787	590.000000
168.170212	597.000000
168.611602	588.000000
169.052957	608.000000
169.494277	604.000000
169.935563	591.000000
170.376813	609.000000
170.818029	585.000000
171.259211	597.000000
171.700357	593.000000
172.141469	584.000000
172.582546	582.000000
173.023588	576.000000
173.464595	587.000000
173.905568	602.000000
174.346506	589.000000
174.787409	581.000000
175.228277	601.000000
175.669111	594.000000
176.109910	585.000000
176.550674	592.000000
176.991403	601.000000
177.432098	586.000000
177.872758	597.000000
178.313383	594.000000
178.753973	562.000000
179.194529	583.000000
179.635050	586.000000
180.075536	592.000000
180.515988	601.000000
180.956405	605.000000
181.396787	600.000000
181.837134	586.000000
182.277447	594.000000
182.717725	605.000000
183.157968	602.000000
183.598177	593.000000
184.038350	590.000000
184.478490	576.000000
184.918594	602.000000
185.358664	594.000000
185.798699	591.000000
186.238699	587.000000
186.678665	603.000000
187.118596	585.000000
187.558492	604.000000
187.998354	606.000000
188.438181	588.000000
188.877973	603.000000
189.317731	590.000000
189.757454	592.000000
190.197142	592.000000
190.636796	598.000000
191.076414	598.000000
191.515999	605.000000
191.955548	603.000000
192.395063	606.000000
192.834544	583.000000
193.273989	591.000000
193.713400	604.000000
194.152777	587.000000
194.592118	586.000000
195.031425	594.000000
195.470698	583.000000
195.909936	605.000000
196.349139	600.000000
196.788307	588.000000
197.227441	602.000000
197.666541	606.000000
198.105605	611.000000
198.544635	601.000000
198.983631	592.000000
199.422591	610.000000
199.861518	602.000000
200.300409	591.000000
200.739266	597.000000
201.178089	615.000000
201.616876	591.000000
202.055629	587.000000
202.494348	612.000000
202.933032	604.000000
203.371681	603.000000
203.810296	598.000000
204.248876	602.000000
204.687422	594.000000
205.125933	603.000000
205.564409	617.000000
206.002851	610.000000
206.441258	627.000000
206.879631	580.000000
207.317969	600.000000
207.756273	594.000000
208.194542	578.000000
208.632776	602.000000
209.070976	600.000000
209.509141	602.000000
209.947272	611.000000
210.385368	618.000000
210.823430	608.000000
211.261457	606.000000
211.699449	634.000000
212.137407	598.000000
212.575331	593.000000
213.013220	633.000000
213.451074	626.000000
213.888894	595.000000
214.326679	621.000000
214.764430	615.000000
215.202146	625.000000
215.639828	648.000000
216.077475	620.000000
216.515087	653.000000
216.952666	667.000000
217.390209	623.000000
217.827718	660.000000
218.265193	646.000000
218.702633	636.000000
219.140038	652.000000
219.577410	653.000000
220.014746	660.000000
220.452048	649.000000
220.889316	689.000000
221.326549	665.000000
221.763747	672.000000
222.200911	680.000000
222.638041	675.000000
223.075136	667.000000
223.512197	664.000000
223.949223	686.000000
224.386215	662.000000
224.823172	686.000000
225.260094	683.000000
225.696983	672.000000
226.133836	665.000000
226.570656	676.000000
227.007441	660.000000
227.444191	662.000000
227.880907	645.000000
228.317588	665.000000
228.754235	641.000000
229.190848	633.000000
229.627426	635.000000
230.063970	632.000000
230.500479	628.000000
230.936954	635.000000
231.373394	624.000000
231.809800	631.000000
232.246172	645.000000
232.682509	628.000000
233.118811	622.000000
233.555080	640.000000
233.991313	630.000000
234.427513	635.000000
234.863678	634.000000
235.299808	632.000000
235.735904	642.000000
236.171966	616.000000
236.607993	647.000000
237.043986	646.000000
237.479944	629.000000
237.915869	663.000000
238.351758	635.000000
238.787613	646.000000
239.223434	644.000000
239.659221	676.000000
240.094973	661.000000
240.530691	685.000000
240.966374	680.000000
241.402023	693.000000
241.837637	699.000000
242.273218	706.000000
242.708763	768.000000
243.144275	751.000000
243.579752	778.000000
244.015195	791.000000
244.450603	838.000000
244.885977	855.000000
245.321316	890.000000
245.756622	916.000000
246.191893	958.000000
246.627129	1024.000000
247.062331	1067.000000
247.497499	1061.000000
247.932633	1127.000000
248.367732	1104.000000
248.802796	1119.000000
249.237827	1132.000000
249.672823	1099.000000
250.107785	1162.000000
250.542712	1064.000000
250.977605	1080.000000
251.412464	980.000000
251.847289	962.000000
252.282079	952.000000
252.716835	902.000000
253.151556	890.000000
253.586243	883.000000
254.020896	828.000000
254.455515	823.000000
254.890099	800.000000
255.324649	778.000000
255.759165	751.000000
256.193646	739.000000
256.628093	748.000000
257.062506	738.000000
257.496884	723.000000
257.931229	706.000000
258.365538	760.000000
258.799814	739.000000
259.234055	732.000000
259.668262	712.000000
260.102435	701.000000
260.536574	740.000000
260.970678	739.000000
261.404748	723.000000
261.838783	720.000000
262.272785	738.000000
262.706752	724.000000
263.140685	742.000000
263.574584	783.000000
264.008448	780.000000
264.442278	778.000000
264.876074	769.000000
265.309835	803.000000
265.743563	778.000000
266.177256	795.000000
266.610915	798.000000
267.044539	852.000000
267.478130	824.000000
267.911686	858.000000
268.345208	903.000000
268.778696	951.000000
269.212149	934.000000
269.645568	982.000000
270.078953	1031.000000
270.512304	1047.000000
270.945621	1064.000000
271.378903	1044.000000
271.812151	1073.000000
272.245365	1090.000000
272.678545	1082.000000
273.111690	1084.000000
273.544802	1084.000000
273.977879	1057.000000
274.410922	1045.000000
274.843931	997.000000
275.276905	964.000000
275.709845	946.000000
276.142752	936.000000
276.575624	946.000000
277.008461	899.000000
277.441265	892.000000
277.874034	854.000000
278.306770	810.000000
278.739471	830.000000
279.172138	819.000000
279.604770	775.000000
280.037369	791.000000
280.469933	756.000000
280.902464	760.000000
281.334960	754.000000
281.767422	726.000000
282.199849	704.000000
282.632243	707.000000
283.064602	699.000000
283.496928	712.000000
283.929219	694.000000
284.361476	692.000000
284.793699	686.000000
285.225888	681.000000
285.658042	680.000000
286.090163	677.000000
286.522249	690.000000
286.954301	642.000000
287.386319	668.000000
287.818303	667.000000
288.250253	643.000000
288.682169	656.000000
289.114050	661.000000
289.545898	653.000000
289.977711	678.000000
290.409491	638.000000
290.841236	661.000000
291.272947	678.000000
291.704624	651.000000
292.136267	636.000000
292.567875	669.000000
292.999450	665.000000
293.430991	632.000000
293.862497	635.000000
294.293969	639.000000
294.725408	665.000000
295.156812	638.000000
295.588182	643.000000
296.019518	651.000000
296.450820	635.000000
296.882088	629.000000
297.313322	637.000000
297.744522	638.000000
298.175687	622.000000
298.606819	650.000000
299.037917	626.000000
299.468980	637.000000
299.900010	633.000000
300.331005	639.000000
300.761966	652.000000
301.192894	643.000000
301.623787	646.000000
302.054646	637.000000
302.485471	630.000000
302.916263	650.000000
303.347020	653.000000
303.777743	648.000000
304.208432	636.000000
304.639087	647.000000
305.069708	646.000000
305.500295	647.000000
305.930848	640.000000
306.361367	634.000000
306.791852	631.000000
307.222302	630.000000
307.652719	626.000000
308.083102	629.000000
308.513451	638.000000
308.943766	634.000000
309.374047	628.000000
309.804294	615.000000
310.234506	603.000000
310.664685	624.000000
311.094830	629.000000
311.524941	616.000000
311.955018	632.000000
312.385061	611.000000
312.815070	609.000000
313.245045	629.000000
313.674986	620.000000
314.104892	634.000000
314.534765	627.000000
314.964604	596.000000
315.394410	610.000000
315.824181	615.000000
316.253918	610.000000
316.683621	619.000000
317.113290	611.000000
317.542925	627.000000
317.972527	611.000000
318.402094	611.000000
318.831627	599.000000
319.261127	616.000000
319.690592	617.000000
320.120024	601.000000
320.549421	596.000000
320.978785	611.000000
321.408115	618.000000
321.837411	613.000000
322.266672	611.000000
322.695900	615.000000
323.125094	616.000000
323.554254	613.000000
323.983381	629.000000
324.412473	603.000000
324.841531	621.000000
325.270556	609.000000
325.699546	603.000000
326.128503	614.000000
326.557425	622.000000
326.986314	596.000000
327.415169	612.000000
327.843990	598.000000
328.272777	604.000000
328.701530	615.000000
329.130249	613.000000
329.558935	603.000000
329.987586	645.000000
330.416204	623.000000
330.844788	608.000000
331.273337	616.000000
331.701853	600.000000
332.130336	619.000000
332.558784	612.000000
332.987198	632.000000
333.415579	604.000000
333.843925	611.000000
334.272238	616.000000
334.700517	610.000000
335.128762	624.000000
335.556973	610.000000
335.985150	624.000000
336.413294	614.000000
336.841404	618.000000
337.269479	614.000000
337.697521	635.000000
338.125529	613.000000
338.553504	637.000000
338.981444	631.000000
339.409351	611.000000
339.837223	607.000000
340.265062	606.000000
340.692867	619.000000
341.120638	612.000000
341.548376	613.000000
341.976080	608.000000
342.403749	622.000000
342.831385	612.000000
343.258987	625.000000
343.686556	608.000000
344.114090	620.000000
344.541591	609.000000
344.969058	643.000000
345.396491	608.000000
345.823890	620.000000
346.251256	613.000000
346.678588	618.000000
347.105886	641.000000
347.533150	612.000000
347.960380	620.000000
348.387577	620.000000
348.814740	621.000000
349.241869	623.000000
349.668964	617.000000
350.096025	618.000000
350.523053	615.000000
350.950047	626.000000
351.377007	612.000000
351.803933	606.000000
352.230826	623.000000
352.657685	621.000000
353.084510	611.000000
353.511301	628.000000
353.938059	623.000000
354.364783	625.000000
354.791473	609.000000
355.218129	637.000000
355.644752	606.000000
356.071341	624.000000
356.497896	641.000000
356.924417	615.000000
357.350905	627.000000
357.777359	610.000000
358.203779	623.000000
358.630165	629.000000
359.056518	634.000000
359.482837	626.000000
359.909122	614.000000
360.335374	626.000000
360.761592	628.000000
361.187776	640.000000
361.613926	611.000000
362.040043	618.000000
362.466126	627.000000
362.892175	623.000000
363.318191	639.000000
363.744173	625.000000
364.170121	662.000000
364.596035	631.000000
365.021916	662.000000
365.447763	633.000000
365.873577	646.000000
366.299357	658.000000
366.725103	654.000000
367.150815	665.000000
367.576494	672.000000
368.002139	685.000000
368.427750	669.000000
368.853328	695.000000
369.278872	702.000000
369.704382	731.000000
370.129859	721.000000
370.555302	720.000000
370.980711	735.000000
371.406087	787.000000
371.831429	796.000000
372.256737	795.000000
372.682012	823.000000
373.107253	878.000000
373.532461	899.000000
373.957635	939.000000
374.382775	1013.000000
374.807881	1053.000000
375.232954	1070.000000
375.657994	1179.000000
376.082999	1262.000000
376.507971	1256.000000
376.932910	1376.000000
377.357814	1410.000000
377.782686	1426.000000
378.207523	1472.000000
378.632327	1485.000000
379.057097	1454.000000
379.481834	1342.000000
379.906537	1378.000000
380.331207	1338.000000
380.755843	1211.000000
381.180445	1122.000000
381.605014	1077.000000
382.029549	1057.000000
382.454050	964.000000
382.878518	927.000000
383.302952	856.000000
383.727353	816.000000
384.151720	792.000000
384.576054	758.000000
385.000354	729.000000
385.424620	701.000000
385.848853	703.000000
386.273052	706.000000
386.697218	663.000000
387.121350	662.000000
387.545448	640.000000
387.969513	641.000000
388.393545	650.000000
388.817543	667.000000
389.241507	620.000000
389.665438	625.000000
390.089335	632.000000
390.513199	625.000000
390.937029	626.000000
391.360825	643.000000
391.784588	610.000000
392.208318	629.000000
392.632014	645.000000
393.055676	624.000000
393.479305	607.000000
393.902900	609.000000
394.326462	595.000000
394.749990	628.000000
395.173485	607.000000
395.596946	615.000000
396.020374	602.000000
396.443768	605.000000
396.867129	594.000000
397.290456	595.000000
397.713750	611.000000
398.137010	616.000000
398.560237	598.000000
398.983430	591.000000
399.406589	579.000000
399.829716	585.000000
400.252808	599.000000
400.675867	594.000000
401.098893	594.000000
401.521885	583.000000
401.944844	594.000000
402.367769	604.000000
402.790661	586.000000
403.213519	588.000000
403.636344	612.000000
404.059135	576.000000
404.481893	597.000000
404.904618	583.000000
405.327308	604.000000
405.749966	596.000000
406.172590	602.000000
406.595180	613.000000
407.017737	584.000000
407.440261	598.000000
407.862751	600.000000
408.285208	590.000000
408.707631	588.000000
409.130021	585.000000
409.552377	593.000000
409.974700	605.000000
410.396990	586.000000
410.819246	607.000000
411.241469	598.000000
411.663658	595.000000
412.085814	591.000000
412.507936	585.000000
412.930025	601.000000
413.352080	591.000000
413.774102	601.000000
414.196091	593.000000
414.618046	587.000000
415.039968	594.000000
415.461857	589.000000
415.883712	605.000000
416.305533	594.000000
416.727321	601.000000
417.149076	585.000000
417.570798	602.000000
417.992486	598.000000
418.414140	586.000000
418.835762	590.000000
419.257349	606.000000
419.678904	596.000000
420.100425	580.000000
420.521913	600.000000
420.943367	572.000000
421.364788	586.000000
421.786175	587.000000
422.207530	573.000000
422.628850	570.000000
423.050138	589.000000
423.471392	590.000000
423.892613	575.000000
424.313800	599.000000
424.734954	579.000000
425.156075	608.000000
425.577162	579.000000
425.998216	601.000000
426.419237	573.000000
426.840224	594.000000
427.261178	598.000000
427.682098	570.000000
428.102986	601.000000
428.523840	596.000000
428.944660	598.000000
429.365447	582.000000
429.786201	595.000000
430.206922	580.000000
430.627609	570.000000
431.048263	606.000000
431.468884	602.000000
431.889471	579.000000
432.310025	592.000000
432.730546	584.000000
433.151033	594.000000
433.571487	601.000000
433.991908	595.000000
434.412295	591.000000
434.832649	597.000000
435.252970	578.000000
435.673258	579.000000
436.093512	591.000000
436.513733	583.000000
436.933921	604.000000
437.354075	590.000000
437.774196	597.000000
438.194284	581.000000
438.614339	607.000000
439.034360	600.000000
439.454348	595.000000
439.874303	598.000000
440.294224	583.000000
440.714112	585.000000
441.133967	590.000000
441.553789	585.000000
441.973577	602.000000
442.393332	595.000000
442.813054	598.000000
443.232743	576.000000
443.652398	596.000000
444.072020	595.000000
444.491609	592.000000
444.911165	590.000000
445.330687	579.000000
445.750176	586.000000
446.169632	580.000000
446.589055	598.000000
447.008444	604.000000
447.427801	598.000000
447.847124	580.000000
448.266413	590.000000
448.685670	597.000000
449.104893	596.000000
449.524083	593.000000
449.943240	587.000000
450.362364	587.000000
450.781454	571.000000
451.200512	578.000000
451.619536	595.000000
452.038526	586.000000
452.457484	597.000000
452.876408	603.000000
453.295300	597.000000
453.714158	586.000000
454.132983	603.000000
454.551774	595.000000
454.970533	622.000000
455.389258	578.000000
455.807950	590.000000
456.226609	581.000000
456.645235	599.000000
457.063827	601.000000
457.482387	609.000000
457.900913	593.000000
458.319406	579.000000
458.737866	573.000000
459.156293	573.000000
459.574686	613.000000
459.993047	590.000000
460.411374	610.000000
460.829668	583.000000
461.247929	586.000000
461.666157	575.000000
462.084351	593.000000
462.502513	587.000000
462.920641	611.000000
463.338736	603.000000
463.756798	581.000000
464.174827	595.000000
464.592823	610.000000
465.010786	586.000000
465.428715	594.000000
465.846612	593.000000
466.264475	585.000000
466.682305	579.000000
467.100102	583.000000
467.517866	583.000000
467.935597	598.000000
468.353295	614.000000
468.770959	577.000000
469.188591	600.000000
469.606189	602.000000
470.023755	604.000000
470.441287	583.000000
470.858786	592.000000
471.276252	589.000000
471.693685	605.000000
472.111084	600.000000
472.528451	596.000000
472.945785	602.000000
473.363085	595.000000
473.780353	617.000000
474.197587	591.000000
474.614788	598.000000
475.031957	594.000000
475.449092	599.000000
475.866194	604.000000
476.283263	580.000000
476.700299	610.000000
477.117302	609.000000
477.534272	589.000000
477.951208	611.000000
478.368112	598.000000
478.784983	587.000000
479.201820	604.000000
479.618625	623.000000
480.035396	588.000000
480.452135	600.000000
480.868840	612.000000
481.285513	598.000000
481.702152	602.000000
482.118758	582.000000
482.535331	586.000000
482.951872	607.000000
483.368379	599.000000
483.784853	592.000000
484.201294	582.000000
484.617702	588.000000
485.034077	603.000000
485.450420	598.000000
485.866729	605.000000
486.283005	600.000000
486.699248	602.000000
487.115458	621.000000
487.531635	617.000000
487.947779	603.000000
488.363890	600.000000
488.779968	623.000000
489.196013	604.000000
489.612025	598.000000
490.028004	597.000000
490.443950	603.000000
490.859863	590.000000
491.275744	608.000000
491.691591	608.000000
492.107405	610.000000
492.523186	614.000000
492.938934	610.000000
493.354649	628.000000
493.770332	602.000000
494.185981	615.000000
494.601597	595.000000
495.017181	598.000000
495.432731	599.000000
495.848249	603.000000
496.263733	623.000000
496.679185	601.000000
497.094603	623.000000
497.509989	622.000000
497.925341	620.000000
498.340661	596.000000
498.755948	609.000000
499.171202	617.000000
499.586423	606.000000
500.001611	605.000000
500.416766	617.000000
500.831888	615.000000
501.246977	597.000000
501.662033	599.000000
502.077057	598.000000
502.492047	614.000000
502.907005	623.000000
503.321929	596.000000
503.736821	625.000000
504.151680	609.000000
504.566506	610.000000
504.981299	601.000000
505.396059	628.000000
505.810786	617.000000
506.225480	621.000000
506.640141	617.000000
507.054770	608.000000
507.469365	631.000000
507.883928	618.000000
508.298458	601.000000
508.712955	616.000000
509.127419	618.000000
509.541850	592.000000
509.956248	593.000000
510.370614	617.000000
510.784946	596.000000
511.199246	609.000000
511.613513	628.000000
512.027746	598.000000
512.441947	608.000000
512.856116	644.000000
513.270251	606.000000
513.684353	619.000000
514.098423	613.000000
514.512460	614.000000
514.926464	608.000000
515.340435	604.000000
515.754373	618.000000
516.168278	621.000000
516.582151	611.000000
516.995990	622.000000
517.409797	622.000000
517.823571	601.000000
518.237312	620.000000
518.651021	589.000000
519.064696	626.000000
519.478339	611.000000
519.891949	599.000000
520.305526	624.000000
520.719070	621.000000
521.132581	619.000000
521.546060	616.000000
521.959506	626.000000
522.372919	632.000000
522.786299	619.000000
523.199646	625.000000
523.612961	639.000000
524.026243	638.000000
524.439492	623.000000
524.852708	623.000000
525.265891	615.000000
525.679042	619.000000
526.092160	619.000000
526.505245	628.000000
526.918297	615.000000
527.331316	610.000000
527.744303	607.000000
528.157257	634.000000
528.570178	618.000000
528.983066	633.000000
529.395922	638.000000
529.808745	618.000000
530.221535	632.000000
530.634292	604.000000
531.047017	635.000000
531.459708	616.000000
531.872367	615.000000
532.284994	614.000000
532.697587	612.000000
533.110148	625.000000
533.522676	630.000000
533.935171	623.000000
534.347634	630.000000
534.760063	608.000000
535.172461	623.000000
535.584825	613.000000
535.997156	610.000000
536.409455	643.000000
536.821721	646.000000
537.233955	618.000000
537.646155	617.000000
538.058323	610.000000
538.470459	611.000000
538.882561	620.000000
539.294631	634.000000
539.706668	624.000000
540.118672	623.000000
540.530644	635.000000
540.942583	630.000000
541.354489	638.000000
541.766363	635.000000
542.178204	617.000000
542.590012	614.000000
543.001788	608.000000
543.413530	623.000000
543.825240	598.000000
544.236918	626.000000
544.648563	636.000000
545.060175	614.000000
545.471754	628.000000
545.883301	619.000000
546.294815	629.000000
546.706296	618.000000
547.117745	629.000000
547.529161	637.000000
547.940544	622.000000
548.351895	622.000000
548.763213	629.000000
549.174498	627.000000
549.585751	618.000000
549.996971	614.000000
550.408159	635.000000
550.819313	628.000000
551.230435	625.000000
551.641525	611.000000
552.052582	635.000000
552.463606	615.000000
552.874597	638.000000
553.285556	634.000000
553.696483	617.000000
554.107376	624.000000
554.518237	619.000000
554.929066	651.000000
555.339862	649.000000
555.750625	612.000000
556.161355	619.000000
556.572053	643.000000
556.982718	670.000000
557.393351	659.000000
557.803951	654.000000
558.214519	670.000000
558.625054	664.000000
559.035556	706.000000
559.446026	716.000000
559.856463	711.000000
560.266867	718.000000
560.677239	730.000000
561.087578	770.000000
561.497885	753.000000
561.908159	798.000000
562.318401	782.000000
562.728610	787.000000
563.138786	812.000000
563.548930	807.000000
563.959041	830.000000
564.369120	805.000000
564.779166	775.000000
565.189179	780.000000
565.599160	776.000000
566.009109	729.000000
566.419024	729.000000
566.828908	736.000000
567.238758	754.000000
567.648577	702.000000
568.058362	671.000000
568.468115	668.000000
568.877836	668.000000
569.287524	662.000000
569.697179	665.000000
570.106802	663.000000
570.516392	631.000000
570.925950	633.000000
571.335475	628.000000
571.744968	628.000000
572.154428	645.000000
572.563856	638.000000
572.973251	618.000000
573.382614	605.000000
573.791944	618.000000
574.201242	604.000000
574.610507	624.000000
575.019739	619.000000
575.428939	627.000000
575.838107	625.000000
576.247242	628.000000
576.656345	616.000000
577.065415	619.000000
577.474452	607.000000
577.883457	609.000000
578.292430	607.000000
578.701370	622.000000
579.110277	610.000000
579.519153	632.000000
579.927995	627.000000
580.336805	607.000000
580.745583	612.000000
581.154328	618.000000
581.563041	625.000000
581.971721	618.000000
582.380369	619.000000
582.788984	626.000000
583.197567	606.000000
583.606117	623.000000
584.014635	610.000000
584.423120	614.000000
584.831573	615.000000
585.239994	619.000000
585.648382	617.000000
586.056738	597.000000
586.465061	619.000000
586.873352	602.000000
587.281610	629.000000
587.689836	612.000000
588.098029	613.000000
588.506190	612.000000
588.914319	609.000000
589.322415	610.000000
589.730478	627.000000
590.138510	618.000000
590.546508	620.000000
590.954475	620.000000
591.362409	618.000000
591.770310	635.000000
592.178179	608.000000
592.586016	605.000000
592.993820	644.000000
593.401592	617.000000
593.809332	596.000000
594.217039	621.000000
594.624714	619.000000
595.032356	612.000000
595.439966	609.000000
595.847543	599.000000
596.255088	623.000000
596.662601	610.000000
597.070081	604.000000
597.477529	627.000000
597.884945	615.000000
598.292328	621.000000
598.699679	613.000000
599.106997	596.000000
599.514283	612.000000
